Folder: thesis2024/data

File: SP6_xrd.csv
Baseline,Background,SiO2,Dolomite,Observed,Difference
4.0028,2081.38,2081.99,2081.42,2035,-47.03
4.3037,1882.56,1883.2,1882.6,1974,90.76
4.6045,1834.26,1834.92,1834.31,1889,54.03
4.9053,1802.54,1803.22,1802.59,1742,-61.27
5.2061,1752.89,1753.6,1752.94,1756,2.36
5.507,1684.93,1685.66,1684.98,1661,-24.71
5.8078,1607.05,1607.81,1607.1,1611,3.14
6.1086,1527.49,1528.27,1527.54,1517,-11.33
6.4094,1451.92,1452.73,1451.97,1501,48.21
6.7102,1383.36,1384.2,1383.42,1450,65.74
7.0111,1322.86,1323.73,1322.92,1341,17.21
7.3119,1270.19,1271.09,1270.25,1300,28.85
7.6127,1224.43,1225.36,1224.49,1244,18.58
7.9135,1184.35,1185.32,1184.41,1205,19.62
8.2144,1148.73,1149.73,1148.79,1164,14.21
8.5152,1116.41,1117.44,1116.47,1059,-58.51
8.816,1086.46,1087.53,1086.53,1065,-22.6
9.1168,1058.12,1059.23,1058.19,1026,-33.29
9.4177,1030.84,1031.99,1030.91,1020,-12.06
9.7185,1004.25,1005.45,1004.32,922,-83.52
10.0193,978.14,979.38,978.21,959,-20.45
10.3201,952.38,953.67,952.46,947,-6.74
10.6209,926.95,928.3,927.03,974,45.62
10.9218,901.91,903.31,901.99,891,-12.39
11.2226,877.33,878.79,877.41,916,37.12
11.5234,853.33,854.86,853.41,865,10.06
11.8242,830.02,831.62,830.11,837,5.29
12.1251,807.52,809.19,807.61,845,35.71
12.4259,785.95,787.71,786.04,794,6.2
12.7267,765.4,767.24,765.5,812,44.66
13.0275,745.97,747.91,746.07,761,12.99
13.3284,727.72,729.77,727.82,724,-5.87
13.6292,710.69,712.85,710.8,730,17.04
13.93,694.93,697.22,695.04,701,3.67
14.2308,680.45,682.88,680.56,696,13.01
14.5316,667.23,669.81,667.35,696,26.07
14.8325,655.28,658.03,655.41,701,42.84
15.1333,644.56,647.51,644.69,681,33.36
15.4341,635.03,638.2,635.17,666,27.67
15.7349,626.64,630.05,626.79,592,-38.21
16.0358,619.34,623.04,619.52,658,34.78
16.3366,613.06,617.09,613.42,593,-24.46
16.6374,607.74,612.16,608.6,599,-14.03
16.9382,603.31,608.2,603.54,582,-26.43
17.239,599.69,605.14,599.88,607,1.66
17.5399,596.82,602.97,597.01,530,-73.16
17.8407,594.61,601.65,594.81,615,13.16
18.1415,593,601.2,593.21,594,-7.4
18.4423,591.91,601.68,592.13,534,-67.9
18.7432,591.28,607.75,591.51,598,-9.98
19.044,591.04,608.17,591.29,634,25.58
19.3448,591.13,611.3,591.4,697,85.43
19.6456,591.48,620.12,591.78,659,38.58
19.9465,592.04,639.09,592.44,741,101.51
20.2473,592.77,690.99,593.16,848,156.62
20.5481,593.6,956.49,594.05,1076,119.06
20.8489,594.49,10170.45,595.06,10759,587.98
21.1497,595.4,1036.15,596.22,1153,116.02
21.4506,596.3,706.77,597.82,838,129.72
21.7514,597.14,651.21,602.53,693,36.4
22.0522,597.91,633.55,635.26,781,110.1
22.353,598.56,626.76,602.41,639,8.39
22.6539,599.08,624.36,600.6,636,10.11
22.9547,599.45,624.28,600.61,586,-39.45
23.2555,599.65,625.78,600.95,567,-60.09
23.5563,599.67,628.7,601.92,558,-72.95
23.8572,599.49,635.09,609.58,609,-36.18
24.158,599.1,668.63,620.12,680,-9.65
24.4588,598.5,651.3,601.43,618,-36.22
24.7596,597.68,662.49,599.13,632,-31.94
25.0604,596.64,685.11,597.75,575,-111.21
25.3613,595.38,727.48,596.39,728,-0.49
25.6621,593.89,816.03,594.9,957,139.95
25.9629,592.19,1048.5,593.25,1232,182.44
26.2637,590.28,2034.04,591.43,1902,-133.18
26.5646,588.15,23160.02,589.42,23991,829.72
26.8654,585.82,5574.03,587.25,4674,-901.46
27.1662,583.29,1408.74,584.93,1288,-122.39
27.467,580.58,907.28,582.5,947,37.81
27.7678,577.68,752.04,581.21,824,68.42
28.0687,574.62,683.16,578.4,798,111.06
28.3695,571.39,645.6,574.94,682,32.85
28.6703,568.01,622.12,572.27,716,89.62
28.9711,564.49,605.88,570.02,727,115.6
29.272,560.84,593.71,568.45,645,43.68
29.5728,557.07,584.03,568.33,662,66.71
29.8736,553.19,575.91,571.71,678,83.58
30.1744,549.21,568.71,585.46,624,19.03
30.4753,545.15,561.93,645.5,635,-27.29
30.7761,541.01,555.67,1259.49,1461,186.85
31.0769,536.81,549.81,1187.41,1236,35.59
31.3777,532.55,544.24,625.9,639,1.42
31.6785,528.25,538.9,562.89,608,34.46
31.9794,523.91,533.75,541.97,566,14.19
32.2802,519.54,528.76,530.79,447,-93.02
32.581,515.17,523.95,523.16,499,-32.93
32.8818,510.78,523.71,517.47,514,-16.4
33.1827,506.39,515.48,515.51,541,16.4
33.4835,502.02,510.53,543.7,534,-18.2
33.7843,497.66,506.24,505.2,488,-25.78
34.0851,493.33,502.32,497.21,467,-39.21
34.386,489.03,498.84,492.28,502,-0.09
34.6868,484.77,496,488.49,498,-1.72
34.9876,480.55,494.25,488.94,489,-13.63
35.2884,476.38,494.67,523.55,572,30.15
35.5892,472.27,504.28,479.33,492,-19.33
35.8901,468.22,521.16,471.48,495,-29.42
36.1909,464.23,626.86,467.02,577,-52.66
36.4917,460.31,2278.73,463.62,2264,-18.04
36.7925,456.47,882.82,462.23,898,9.41
37.0934,452.7,536.51,473.7,550,-7.51
37.3942,449.01,487.51,558.41,590,-6.91
37.695,445.39,470.77,458.94,454,-30.33
37.9958,441.87,463.28,446.54,498,30.05
38.2966,438.42,461.92,441.29,445,-19.78
38.5975,435.06,463.48,437.37,457,-8.79
38.8983,431.79,481.9,433.99,460,-24.1
39.1991,428.61,608.85,430.99,620,8.78
39.4999,425.51,2869.03,428.38,3378,506.11
39.8008,422.5,619.25,426.28,627,3.97
40.1016,419.58,675.8,425.37,687,5.42
40.4024,416.74,1201.68,428.18,1231,17.88
40.7032,413.99,498,445.24,520,-9.25
41.0041,411.33,446.88,651.14,717,30.3
41.3049,408.75,434.91,544.11,576,5.72
41.6057,406.26,432.76,428.71,484,28.79
41.9065,403.84,447.07,412.96,447,-9.19
42.2073,401.51,576.53,406.8,632,50.19
42.5082,399.25,1916.82,403.06,2020,99.37
42.809,397.07,505.2,400.38,501,-7.51
43.1098,394.96,427.54,398.57,426,-5.15
43.4106,392.93,410.96,399,402,-15.02
43.7115,390.96,403.98,423.69,476,39.29
44.0123,389.05,400.14,403.69,419,4.23
44.3131,387.21,397.96,397.95,376,-32.71
44.6139,385.44,397.37,417.39,421,-8.32
44.9147,383.71,402.07,603.27,650,28.37
45.2156,382.05,412.79,420.7,421,-30.44
45.5164,380.43,484.47,390.08,597,102.88
45.8172,378.87,1731.23,383.98,1587,-149.33
46.118,377.35,485.77,380.28,468,-20.69
46.4189,375.88,404.83,377.98,406,-0.92
46.7197,374.44,390.81,376.13,381,-11.5
47.0205,373.04,385.65,374.52,402,14.86
47.3213,371.68,383.22,373.07,409,24.4
47.6222,370.35,382.15,371.74,360,-23.54
47.923,369.05,382.18,370.54,350,-33.67
48.2238,367.77,383.49,369.52,406,20.76
48.5246,366.52,386.79,368.87,371,-18.13
48.8254,365.28,393.82,369.54,447,48.91
49.1263,364.07,410.49,383.51,476,46.07
49.4271,362.87,450.27,379.49,459,-7.89
49.7279,361.68,607.74,369.64,564,-51.7
50.0287,360.51,2119.8,375.79,2108,-27.08
50.3296,359.34,2380.43,443.14,2402,-62.22
50.6304,358.18,678.66,439.09,770,10.44
50.9312,357.02,449.48,530.57,606,-17.03
51.232,355.86,401.48,445.15,544,53.23
51.5329,354.7,383.13,370.94,384,-15.37
51.8337,353.54,373.63,360.41,369,-11.5
52.1345,352.38,367.91,357.35,380,7.12
52.4353,351.21,364.14,356.03,387,18.03
52.7361,350.03,361.57,352.2,382,18.25
53.037,348.85,359.93,350.32,334,-27.4
53.3378,347.65,359.31,348.82,342,-18.48
53.6386,346.45,364.85,347.48,378,12.12
53.9394,345.23,364.49,346.05,364,-1.31
54.2403,344,376.06,344.71,357,-19.77
54.5411,342.75,441.5,343.39,470,27.86
54.8419,341.5,1743.48,342.08,1328,-416.05
55.1427,340.23,683.67,340.78,724,39.79
55.4436,338.94,724.94,339.47,706,-19.47
55.7444,337.64,386.35,338.15,405,18.15
56.0452,336.32,357.41,336.83,377,19.08
56.346,334.98,349.35,335.51,362,12.12
56.6468,333.64,346.26,334.38,341,-5.99
56.9477,332.27,349.21,332.92,368,18.15
57.2485,330.89,397.29,331.6,407,8.99
57.5493,329.5,349.45,330.45,356,5.59
57.8501,328.1,341.19,329.27,341,-1.36
58.151,326.68,340.73,328.59,345,2.36
58.4518,325.25,342.83,329.48,337,-10.06
58.7526,323.81,349.09,346.27,360,-11.55
59.0534,322.36,363.33,344.84,388,2.2
59.3542,320.9,407.8,329.81,430,13.29
59.6551,319.43,630.81,354.31,662,-3.69
59.9559,317.96,2938.34,360.45,2699,-281.84
60.2567,316.49,910.25,323.25,933,15.99
60.5575,315.01,431.27,317.74,452,18.01
60.8584,313.53,369.06,315.27,381,10.2
61.1592,312.05,340.83,313.51,354,11.7
61.46,310.58,329.58,312.28,359,27.72
61.7608,309.11,323.41,313.52,328,0.18
62.0617,307.65,319.47,312.98,315,-9.8
62.3625,306.2,316.83,308.71,331,11.66
62.6633,304.77,315.25,308.29,320,1.23
62.9641,303.35,314.99,311.75,318,-5.38
63.2649,301.94,317.52,347.82,339,-24.4
63.5658,300.56,330.94,351.49,418,36.12
63.8666,299.2,423.46,309.56,457,23.18
64.1674,297.87,609.62,310.68,631,8.57
64.4682,296.56,350.02,332.03,366,-19.49
64.7691,295.29,316.91,309.55,325,-6.17
65.0699,294.05,310.92,323.13,334,-6
65.3707,292.85,314.64,301.55,322,-1.34
65.6715,291.69,366.37,296.38,427,55.94
65.9723,290.57,410.69,304.83,458,33.05
66.2732,289.51,318.12,296.51,348,22.88
66.574,288.49,320.46,292.1,377,52.93
66.8748,287.53,336.33,293.77,382,39.43
67.1756,286.63,384.58,312.28,425,14.77
67.4765,285.79,598.21,335.87,637,-11.28
67.7773,285.01,1986.39,294.92,1734,-262.3
68.0781,284.31,2140,287.73,2068,-75.42
68.3789,283.67,2330.93,285.48,1994,-338.73
68.6798,283.12,561.09,284.37,646,83.66
68.9806,282.64,365.01,283.7,358,-8.06
69.2814,282.24,324.39,283.36,335,9.49
69.5822,281.94,308.21,283.64,313,3.1
69.8831,281.73,299.97,286.79,313,7.97
70.1839,281.6,295.2,295.46,323,13.93
70.4847,281.58,292.27,297.1,337,29.2
70.7855,281.67,290.45,284.66,295,1.56
71.0863,281.85,289.36,283.17,293,2.33
71.3872,282.15,288.84,283.12,293,3.18
71.688,282.57,288.85,283.56,282,-7.84
71.9888,283.1,289.4,284.48,297,6.22
72.2896,283.76,290.79,286.68,297,3.3
72.5905,284.53,293.86,296.17,296,-9.5
72.8913,285.43,302.79,308.09,322,-3.46
73.1921,286.5,341.76,292.1,349,1.65
73.4929,287.68,864.52,289.61,742,-124.46
73.7937,289,422.3,290.42,416,-7.72
74.0946,290.47,310.67,292.59,320,7.22
74.3954,292.1,301.08,299.91,308,-0.89
74.6962,293.85,299.37,305.98,334,22.49
74.997,295.8,299.76,298.68,282,-20.64
75.0472,296.13,299.91,298.39,340,37.82